"rt","recall","stimuli","accuracy","set_size","trial_type","trial_index","time_elapsed","internal_node_id","stimulus"
"9268","F,R,J","F,R,J","3","3","operation-span-recall","9","55517","0.0-3.0-1.0",""
"7534","S,H,P,K","S,H,P,K","4","4","operation-span-recall","19","71153","0.0-3.0-1.1",""
"8518","N,L,P,Q,F","N,L,Q,P,F","3","5","operation-span-recall","31","85917","0.0-3.0-1.2",""
"3111","","","1","","html-button-operationspan","34","112357","0.0-5.0-0.0","<div style=""font-size:46px;"">3 + 8 = 11<br><br><br><br></div>"
"2142","","","1","","html-button-operationspan","36","115503","0.0-5.0-0.1","<div style=""font-size:46px;"">7 - 3 = 6<br><br><br><br></div>"
"3123","","","1","","html-button-operationspan","38","119630","0.0-5.0-0.2","<div style=""font-size:46px;"">8 + 1 = 7<br><br><br><br></div>"
"2648","","","1","","html-button-operationspan","40","123282","0.0-5.0-0.3","<div style=""font-size:46px;"">5 + 4 = 11<br><br><br><br></div>"
"2651","","","1","","html-button-operationspan","42","126936","0.0-5.0-0.4","<div style=""font-size:46px;"">9 - 3 = 7<br><br><br><br></div>"
"2586","","","1","","html-button-operationspan","46","144922","0.0-7.0-0.0-1.0","<div style=""font-size:46px;"">5 + 4 = 9<br><br><br><br></div>"
"2296","","","1","","html-button-operationspan","49","148222","0.0-7.0-0.0-1.1","<div style=""font-size:46px;"">10 - 7 = 3<br><br><br><br></div>"
"5958","","","1","","html-button-operationspan","52","155185","0.0-7.0-0.0-1.2","<div style=""font-size:46px;"">10 + 7 = 15<br><br><br><br></div>"
"7437","T,H,N","T,H,N","3","3","operation-span-recall","54","162626","0.0-7.0-1.0",""
"1966","","","1","","html-button-operationspan","57","167915","0.0-7.0-0.1-1.3","<div style=""font-size:46px;"">6 - 2 = 4<br><br><br><br></div>"
"2084","","","1","","html-button-operationspan","60","171003","0.0-7.0-0.1-1.4","<div style=""font-size:46px;"">9 + 1 = 12<br><br><br><br></div>"
"4837","","","1","","html-button-operationspan","63","176845","0.0-7.0-0.1-1.5","<div style=""font-size:46px;"">4 + 5 = 8<br><br><br><br></div>"
"1669","","","1","","html-button-operationspan","66","179519","0.0-7.0-0.1-1.6","<div style=""font-size:46px;"">2 + 1 = 3<br><br><br><br></div>"
"7064","V,F,L,T","V,F,L,T","4","4","operation-span-recall","68","186588","0.0-7.0-1.1",""
"1611","","","1","","html-button-operationspan","72","196468","0.0-9.0-0.0-1.0","<div style=""font-size:46px;"">5 + 5 = 10<br><br><br><br></div>"
"2140","","","1","","html-button-operationspan","75","199613","0.0-9.0-0.0-1.1","<div style=""font-size:46px;"">5 - 1 = 4<br><br><br><br></div>"
"1866","","","1","","html-button-operationspan","78","202485","0.0-9.0-0.0-1.2","<div style=""font-size:46px;"">6 - 1 = 6<br><br><br><br></div>"
"2040","","","1","","html-button-operationspan","81","205530","0.0-9.0-0.0-1.3","<div style=""font-size:46px;"">7 - 1 = 6<br><br><br><br></div>"
"6292","Q,L,K,S","Q,L,K,S","4","4","operation-span-recall","83","211826","0.0-9.0-1.0",""
"1820","","","1","","html-button-operationspan","86","216507","0.0-9.0-0.1-1.4","<div style=""font-size:46px;"">2 + 8 = 10<br><br><br><br></div>"
"1822","","","1","","html-button-operationspan","89","219333","0.0-9.0-0.1-1.5","<div style=""font-size:46px;"">10 + 10 = 22<br><br><br><br></div>"
"2070","","","1","","html-button-operationspan","92","222407","0.0-9.0-0.1-1.6","<div style=""font-size:46px;"">5 + 7 = 12<br><br><br><br></div>"
"2265","","","1","","html-button-operationspan","95","225676","0.0-9.0-0.1-1.7","<div style=""font-size:46px;"">7 + 3 = 10<br><br><br><br></div>"
"8677","T,F,H,S","T,F,H,S","4","4","operation-span-recall","97","234358","0.0-9.0-1.1",""
"2312","","","1","","html-button-operationspan","100","241089","0.0-9.0-0.2-1.8","<div style=""font-size:46px;"">6 - 3 = 2<br><br><br><br></div>"
"2889","","","1","","html-button-operationspan","103","244982","0.0-9.0-0.2-1.9","<div style=""font-size:46px;"">2 + 10 = 12<br><br><br><br></div>"
"5697","","","1","","html-button-operationspan","106","251683","0.0-9.0-0.2-1.10","<div style=""font-size:46px;"">10 - 7 = 2<br><br><br><br></div>"
"3042","","","1","","html-button-operationspan","109","255729","0.0-9.0-0.2-1.11","<div style=""font-size:46px;"">3 - 2 = 2<br><br><br><br></div>"
"7157","T,F,S,L","T,S,F,L","2","4","operation-span-recall","111","262890","0.0-9.0-1.2",""
"4723","","","0","","html-button-operationspan","114","270498","0.0-9.0-0.3-1.12","<div style=""font-size:46px;"">7 + 8 = 15<br><br><br><br></div>"
"1775","","","1","","html-button-operationspan","117","273277","0.0-9.0-0.3-1.13","<div style=""font-size:46px;"">1 + 4 = 6<br><br><br><br></div>"
"4257","","","1","","html-button-operationspan","120","278539","0.0-9.0-0.3-1.14","<div style=""font-size:46px;"">6 - 4 = 1<br><br><br><br></div>"
"1918","","","1","","html-button-operationspan","123","281463","0.0-9.0-0.3-1.15","<div style=""font-size:46px;"">8 + 8 = 16<br><br><br><br></div>"
"3361","","","1","","html-button-operationspan","126","285830","0.0-9.0-0.3-1.16","<div style=""font-size:46px;"">3 + 7 = 10<br><br><br><br></div>"
"23137","T,F,V,R,S","F,R,V,J,L","1","5","operation-span-recall","128","308972","0.0-9.0-1.3",""
"3879","","","1","","html-button-operationspan","131","318772","0.0-9.0-0.4-1.17","<div style=""font-size:46px;"">8 - 7 = 1<br><br><br><br></div>"
"2346","","","1","","html-button-operationspan","134","322124","0.0-9.0-0.4-1.18","<div style=""font-size:46px;"">4 + 10 = 14<br><br><br><br></div>"
"1935","","","1","","html-button-operationspan","137","325063","0.0-9.0-0.4-1.19","<div style=""font-size:46px;"">8 + 2 = 11<br><br><br><br></div>"
"1864","","","1","","html-button-operationspan","140","327932","0.0-9.0-0.4-1.20","<div style=""font-size:46px;"">5 - 1 = 2<br><br><br><br></div>"
"null","","","null","","html-button-operationspan","143","334937","0.0-9.0-0.4-1.21","<div style=""font-size:46px;"">6 - 2 = 3<br><br><br><br></div>"
"12868","P,H,J,K,Q","P,H,J,K,Q","5","5","operation-span-recall","145","347817","0.0-9.0-1.4",""
"2310","","","1","","html-button-operationspan","148","354590","0.0-9.0-0.5-1.22","<div style=""font-size:46px;"">4 + 4 = 6<br><br><br><br></div>"
"4882","","","1","","html-button-operationspan","151","360477","0.0-9.0-0.5-1.23","<div style=""font-size:46px;"">9 + 3 = 12<br><br><br><br></div>"
"2406","","","1","","html-button-operationspan","154","363888","0.0-9.0-0.5-1.24","<div style=""font-size:46px;"">6 + 10 = 17<br><br><br><br></div>"
"1443","","","1","","html-button-operationspan","157","366336","0.0-9.0-0.5-1.25","<div style=""font-size:46px;"">1 + 5 = 6<br><br><br><br></div>"
"4379","","","1","","html-button-operationspan","160","371719","0.0-9.0-0.5-1.26","<div style=""font-size:46px;"">10 + 8 = 16<br><br><br><br></div>"
"5949","V,R,P,Q","V,R,L,P,Q","2","5","operation-span-recall","162","377672","0.0-9.0-1.5",""
"2645","","","1","","html-button-operationspan","165","387605","0.0-9.0-0.6-1.27","<div style=""font-size:46px;"">8 - 2 = 6<br><br><br><br></div>"
"1646","","","0","","html-button-operationspan","168","390256","0.0-9.0-0.6-1.28","<div style=""font-size:46px;"">2 - 1 = 3<br><br><br><br></div>"
"4529","","","1","","html-button-operationspan","171","395790","0.0-9.0-0.6-1.29","<div style=""font-size:46px;"">5 + 9 = 16<br><br><br><br></div>"
"2773","","","0","","html-button-operationspan","174","399569","0.0-9.0-0.6-1.30","<div style=""font-size:46px;"">9 + 2 = 11<br><br><br><br></div>"
"2135","","","1","","html-button-operationspan","177","402709","0.0-9.0-0.6-1.31","<div style=""font-size:46px;"">6 - 2 = 2<br><br><br><br></div>"
"3960","","","1","","html-button-operationspan","180","407674","0.0-9.0-0.6-1.32","<div style=""font-size:46px;"">8 - 5 = 3<br><br><br><br></div>"
"12419","H,Q,F,S,L,R","H,Q,F,S,L,R","6","6","operation-span-recall","182","420098","0.0-9.0-1.6",""
"3100","","","1","","html-button-operationspan","185","427447","0.0-9.0-0.7-1.33","<div style=""font-size:46px;"">2 + 10 = 14<br><br><br><br></div>"
"2421","","","1","","html-button-operationspan","188","430874","0.0-9.0-0.7-1.34","<div style=""font-size:46px;"">3 + 3 = 6<br><br><br><br></div>"
"2826","","","1","","html-button-operationspan","191","434707","0.0-9.0-0.7-1.35","<div style=""font-size:46px;"">3 + 8 = 12<br><br><br><br></div>"
"3098","","","0","","html-button-operationspan","194","438808","0.0-9.0-0.7-1.36","<div style=""font-size:46px;"">5 + 9 = 14<br><br><br><br></div>"
"2950","","","1","","html-button-operationspan","197","442763","0.0-9.0-0.7-1.37","<div style=""font-size:46px;"">7 + 7 = 14<br><br><br><br></div>"
"5013","","","1","","html-button-operationspan","200","448780","0.0-9.0-0.7-1.38","<div style=""font-size:46px;"">3 - 2 = 1<br><br><br><br></div>"
"8968","T,N,J,Q,K","T,N,J,F,Q,K","3","6","operation-span-recall","202","457753","0.0-9.0-1.7",""
"2928","","","1","","html-button-operationspan","205","464461","0.0-9.0-0.8-1.39","<div style=""font-size:46px;"">8 - 7 = 1<br><br><br><br></div>"
"3450","","","1","","html-button-operationspan","208","468916","0.0-9.0-0.8-1.40","<div style=""font-size:46px;"">2 + 6 = 8<br><br><br><br></div>"
"2820","","","1","","html-button-operationspan","211","472741","0.0-9.0-0.8-1.41","<div style=""font-size:46px;"">6 + 6 = 12<br><br><br><br></div>"
"3863","","","1","","html-button-operationspan","214","477610","0.0-9.0-0.8-1.42","<div style=""font-size:46px;"">7 - 3 = 4<br><br><br><br></div>"
"2435","","","1","","html-button-operationspan","217","481051","0.0-9.0-0.8-1.43","<div style=""font-size:46px;"">4 - 1 = 3<br><br><br><br></div>"
"3073","","","1","","html-button-operationspan","220","485127","0.0-9.0-0.8-1.44","<div style=""font-size:46px;"">8 - 2 = 6<br><br><br><br></div>"
"9821","J,P,Q,N,V","J,P,Q,N,L,V","4","6","operation-span-recall","222","494953","0.0-9.0-1.8",""
"null","","","null","","html-button-operationspan","225","503489","0.0-9.0-0.9-1.45","<div style=""font-size:46px;"">9 - 2 = 6<br><br><br><br></div>"
"2682","","","1","","html-button-operationspan","228","507178","0.0-9.0-0.9-1.46","<div style=""font-size:46px;"">5 - 1 = 6<br><br><br><br></div>"
"2115","","","1","","html-button-operationspan","231","510297","0.0-9.0-0.9-1.47","<div style=""font-size:46px;"">4 + 1 = 5<br><br><br><br></div>"
"1682","","","1","","html-button-operationspan","234","512983","0.0-9.0-0.9-1.48","<div style=""font-size:46px;"">5 + 5 = 12<br><br><br><br></div>"
"2102","","","1","","html-button-operationspan","237","516090","0.0-9.0-0.9-1.49","<div style=""font-size:46px;"">4 + 8 = 12<br><br><br><br></div>"
"2113","","","1","","html-button-operationspan","240","519210","0.0-9.0-0.9-1.50","<div style=""font-size:46px;"">2 - 1 = 3<br><br><br><br></div>"
"2839","","","1","","html-button-operationspan","243","523053","0.0-9.0-0.9-1.51","<div style=""font-size:46px;"">4 - 3 = 1<br><br><br><br></div>"
"5686","H","H,S,F,J,V,L,N","1","7","operation-span-recall","245","528745","0.0-9.0-1.9",""
"2182","","","1","","html-button-operationspan","248","533909","0.0-9.0-0.10-1.52","<div style=""font-size:46px;"">2 + 2 = 5<br><br><br><br></div>"
"2478","","","0","","html-button-operationspan","251","537393","0.0-9.0-0.10-1.53","<div style=""font-size:46px;"">7 - 5 = 2<br><br><br><br></div>"
"2275","","","1","","html-button-operationspan","254","540672","0.0-9.0-0.10-1.54","<div style=""font-size:46px;"">3 - 2 = 3<br><br><br><br></div>"
"2319","","","1","","html-button-operationspan","257","543996","0.0-9.0-0.10-1.55","<div style=""font-size:46px;"">10 - 7 = 3<br><br><br><br></div>"
"3792","","","1","","html-button-operationspan","260","548794","0.0-9.0-0.10-1.56","<div style=""font-size:46px;"">8 + 4 = 12<br><br><br><br></div>"
"2655","","","1","","html-button-operationspan","263","552454","0.0-9.0-0.10-1.57","<div style=""font-size:46px;"">5 - 4 = 3<br><br><br><br></div>"
"3071","","","1","","html-button-operationspan","266","556529","0.0-9.0-0.10-1.58","<div style=""font-size:46px;"">8 - 6 = 2<br><br><br><br></div>"
"12241","J,F,V,Q,N","J,Q,T,F,V,L,N","1","7","operation-span-recall","268","568774","0.0-9.0-1.10",""
"1901","","","1","","html-button-operationspan","271","574190","0.0-9.0-0.11-1.59","<div style=""font-size:46px;"">2 + 5 = 7<br><br><br><br></div>"
"1332","","","1","","html-button-operationspan","274","576527","0.0-9.0-0.11-1.60","<div style=""font-size:46px;"">8 + 8 = 16<br><br><br><br></div>"
"1782","","","1","","html-button-operationspan","277","579314","0.0-9.0-0.11-1.61","<div style=""font-size:46px;"">1 + 3 = 5<br><br><br><br></div>"
"3725","","","1","","html-button-operationspan","280","584043","0.0-9.0-0.11-1.62","<div style=""font-size:46px;"">6 - 5 = 0<br><br><br><br></div>"
"2317","","","1","","html-button-operationspan","283","587366","0.0-9.0-0.11-1.63","<div style=""font-size:46px;"">7 + 10 = 18<br><br><br><br></div>"
"3117","","","1","","html-button-operationspan","286","591487","0.0-9.0-0.11-1.64","<div style=""font-size:46px;"">1 + 7 = 8<br><br><br><br></div>"
"2684","","","1","","html-button-operationspan","289","595177","0.0-9.0-0.11-1.65","<div style=""font-size:46px;"">1 - 1 = 1<br><br><br><br></div>"
"9790","J,V,P,N,S,K","J,V,P,L,N,S,K","3","7","operation-span-recall","291","604973","0.0-9.0-1.11",""
