"rt","recall","stimuli","accuracy","set_size","trial_type","trial_index","time_elapsed","internal_node_id","stimulus"
"3957","V,T,H","V,T,H","3","3","operation-span-recall","9","64782","0.0-3.0-1.0",""
"4930","N,S,Q,R","N,S,Q,R","4","4","operation-span-recall","19","76870","0.0-3.0-1.1",""
"4836","L,Q,H,K,T","L,Q,H,K,T","5","5","operation-span-recall","31","88023","0.0-3.0-1.2",""
"2695","","","1","","html-button-operationspan","34","108835","0.0-5.0-0.0","<div style=""font-size:46px;"">4 - 1 = 3<br><br><br><br></div>"
"2563","","","1","","html-button-operationspan","36","112399","0.0-5.0-0.1","<div style=""font-size:46px;"">10 + 6 = 17<br><br><br><br></div>"
"1336","","","1","","html-button-operationspan","38","114736","0.0-5.0-0.2","<div style=""font-size:46px;"">5 + 1 = 6<br><br><br><br></div>"
"959","","","1","","html-button-operationspan","40","116697","0.0-5.0-0.3","<div style=""font-size:46px;"">1 + 9 = 10<br><br><br><br></div>"
"985","","","1","","html-button-operationspan","42","118685","0.0-5.0-0.4","<div style=""font-size:46px;"">4 + 5 = 10<br><br><br><br></div>"
"1745","","","1","","html-button-operationspan","46","153706","0.0-7.0-0.0-1.0","<div style=""font-size:46px;"">5 - 2 = 3<br><br><br><br></div>"
"1146","","","1","","html-button-operationspan","49","155856","0.0-7.0-0.0-1.1","<div style=""font-size:46px;"">10 - 3 = 7<br><br><br><br></div>"
"1650","","","1","","html-button-operationspan","52","158510","0.0-7.0-0.0-1.2","<div style=""font-size:46px;"">4 - 3 = 1<br><br><br><br></div>"
"3681","R,K,Q","R,K,Q","3","3","operation-span-recall","54","162195","0.0-7.0-1.0",""
"881","","","1","","html-button-operationspan","57","167125","0.0-7.0-0.1-1.3","<div style=""font-size:46px;"">1 + 7 = 8<br><br><br><br></div>"
"740","","","1","","html-button-operationspan","60","168869","0.0-7.0-0.1-1.4","<div style=""font-size:46px;"">1 + 2 = 3<br><br><br><br></div>"
"821","","","1","","html-button-operationspan","63","170693","0.0-7.0-0.1-1.5","<div style=""font-size:46px;"">2 + 1 = 3<br><br><br><br></div>"
"1010","","","1","","html-button-operationspan","66","172707","0.0-7.0-0.1-1.6","<div style=""font-size:46px;"">6 - 5 = 1<br><br><br><br></div>"
"4554","V,F,L,Q","V,F,L,Q","4","4","operation-span-recall","68","177264","0.0-7.0-1.1",""
"1061","","","1","","html-button-operationspan","72","187450","0.0-9.0-0.0-1.0","<div style=""font-size:46px;"">10 - 4 = 4<br><br><br><br></div>"
"788","","","1","","html-button-operationspan","75","189241","0.0-9.0-0.0-1.1","<div style=""font-size:46px;"">6 - 1 = 5<br><br><br><br></div>"
"929","","","1","","html-button-operationspan","78","191174","0.0-9.0-0.0-1.2","<div style=""font-size:46px;"">4 + 2 = 5<br><br><br><br></div>"
"990","","","1","","html-button-operationspan","81","193168","0.0-9.0-0.0-1.3","<div style=""font-size:46px;"">7 - 1 = 5<br><br><br><br></div>"
"3028","Q,S,P,V","Q,S,P,V","4","4","operation-span-recall","83","196200","0.0-9.0-1.0",""
"1083","","","1","","html-button-operationspan","86","200028","0.0-9.0-0.1-1.4","<div style=""font-size:46px;"">8 - 1 = 7<br><br><br><br></div>"
"610","","","1","","html-button-operationspan","89","201642","0.0-9.0-0.1-1.5","<div style=""font-size:46px;"">1 + 2 = 3<br><br><br><br></div>"
"2659","","","0","","html-button-operationspan","92","205303","0.0-9.0-0.1-1.6","<div style=""font-size:46px;"">7 + 8 = 15<br><br><br><br></div>"
"1159","","","1","","html-button-operationspan","95","207465","0.0-9.0-0.1-1.7","<div style=""font-size:46px;"">6 + 10 = 14<br><br><br><br></div>"
"3737","K,T,N,V","K,T,N,V","4","4","operation-span-recall","97","211205","0.0-9.0-1.1",""
"710","","","1","","html-button-operationspan","100","217441","0.0-9.0-0.2-1.8","<div style=""font-size:46px;"">1 + 8 = 9<br><br><br><br></div>"
"878","","","1","","html-button-operationspan","103","219322","0.0-9.0-0.2-1.9","<div style=""font-size:46px;"">6 - 5 = 3<br><br><br><br></div>"
"787","","","1","","html-button-operationspan","106","221113","0.0-9.0-0.2-1.10","<div style=""font-size:46px;"">5 + 2 = 7<br><br><br><br></div>"
"803","","","1","","html-button-operationspan","109","222919","0.0-9.0-0.2-1.11","<div style=""font-size:46px;"">5 + 3 = 8<br><br><br><br></div>"
"4307","V,L,R,J","V,L,R,J","4","4","operation-span-recall","111","227229","0.0-9.0-1.2",""
"1066","","","1","","html-button-operationspan","114","230404","0.0-9.0-0.3-1.12","<div style=""font-size:46px;"">10 + 6 = 17<br><br><br><br></div>"
"883","","","1","","html-button-operationspan","117","232290","0.0-9.0-0.3-1.13","<div style=""font-size:46px;"">2 + 7 = 9<br><br><br><br></div>"
"1151","","","1","","html-button-operationspan","120","234444","0.0-9.0-0.3-1.14","<div style=""font-size:46px;"">1 - 1 = 2<br><br><br><br></div>"
"877","","","1","","html-button-operationspan","123","236324","0.0-9.0-0.3-1.15","<div style=""font-size:46px;"">1 + 7 = 7<br><br><br><br></div>"
"797","","","1","","html-button-operationspan","126","238124","0.0-9.0-0.3-1.16","<div style=""font-size:46px;"">5 - 4 = 1<br><br><br><br></div>"
"5145","Q,F,H,T,J","Q,F,K,T,J","4","5","operation-span-recall","128","243273","0.0-9.0-1.3",""
"950","","","1","","html-button-operationspan","131","246881","0.0-9.0-0.4-1.17","<div style=""font-size:46px;"">4 - 2 = 2<br><br><br><br></div>"
"718","","","1","","html-button-operationspan","134","248602","0.0-9.0-0.4-1.18","<div style=""font-size:46px;"">10 - 9 = 1<br><br><br><br></div>"
"682","","","1","","html-button-operationspan","137","250287","0.0-9.0-0.4-1.19","<div style=""font-size:46px;"">2 + 2 = 4<br><br><br><br></div>"
"850","","","1","","html-button-operationspan","140","252142","0.0-9.0-0.4-1.20","<div style=""font-size:46px;"">1 + 10 = 12<br><br><br><br></div>"
"950","","","1","","html-button-operationspan","143","254094","0.0-9.0-0.4-1.21","<div style=""font-size:46px;"">10 - 7 = 3<br><br><br><br></div>"
"6626","Q,T,K,S,V","Q,T,K,S,V","5","5","operation-span-recall","145","260723","0.0-9.0-1.4",""
"748","","","1","","html-button-operationspan","148","265527","0.0-9.0-0.5-1.22","<div style=""font-size:46px;"">3 + 6 = 9<br><br><br><br></div>"
"639","","","1","","html-button-operationspan","151","267169","0.0-9.0-0.5-1.23","<div style=""font-size:46px;"">1 + 3 = 4<br><br><br><br></div>"
"943","","","1","","html-button-operationspan","154","269115","0.0-9.0-0.5-1.24","<div style=""font-size:46px;"">6 - 1 = 5<br><br><br><br></div>"
"1010","","","1","","html-button-operationspan","157","271129","0.0-9.0-0.5-1.25","<div style=""font-size:46px;"">10 + 8 = 18<br><br><br><br></div>"
"1038","","","1","","html-button-operationspan","160","273171","0.0-9.0-0.5-1.26","<div style=""font-size:46px;"">1 - 1 = 2<br><br><br><br></div>"
"5509","F,S,J,R,K","F,S,J,R,K","5","5","operation-span-recall","162","278683","0.0-9.0-1.5",""
"867","","","1","","html-button-operationspan","165","282585","0.0-9.0-0.6-1.27","<div style=""font-size:46px;"">2 + 8 = 9<br><br><br><br></div>"
"953","","","1","","html-button-operationspan","168","284540","0.0-9.0-0.6-1.28","<div style=""font-size:46px;"">8 + 2 = 11<br><br><br><br></div>"
"739","","","1","","html-button-operationspan","171","286282","0.0-9.0-0.6-1.29","<div style=""font-size:46px;"">6 + 6 = 12<br><br><br><br></div>"
"1092","","","1","","html-button-operationspan","174","288377","0.0-9.0-0.6-1.30","<div style=""font-size:46px;"">1 - 1 = 1<br><br><br><br></div>"
"781","","","1","","html-button-operationspan","177","290161","0.0-9.0-0.6-1.31","<div style=""font-size:46px;"">2 + 9 = 11<br><br><br><br></div>"
"817","","","1","","html-button-operationspan","180","291981","0.0-9.0-0.6-1.32","<div style=""font-size:46px;"">2 + 8 = 10<br><br><br><br></div>"
"6818","N,F,V,T,F,Q","N,P,V,T,F,Q","5","6","operation-span-recall","182","298802","0.0-9.0-1.6",""
"1010","","","1","","html-button-operationspan","185","304961","0.0-9.0-0.7-1.33","<div style=""font-size:46px;"">5 - 2 = 3<br><br><br><br></div>"
"961","","","1","","html-button-operationspan","188","306925","0.0-9.0-0.7-1.34","<div style=""font-size:46px;"">8 + 10 = 20<br><br><br><br></div>"
"897","","","1","","html-button-operationspan","191","308825","0.0-9.0-0.7-1.35","<div style=""font-size:46px;"">5 - 3 = 4<br><br><br><br></div>"
"1105","","","1","","html-button-operationspan","194","310933","0.0-9.0-0.7-1.36","<div style=""font-size:46px;"">10 + 8 = 16<br><br><br><br></div>"
"1453","","","1","","html-button-operationspan","197","313389","0.0-9.0-0.7-1.37","<div style=""font-size:46px;"">8 + 3 = 11<br><br><br><br></div>"
"1056","","","1","","html-button-operationspan","200","315447","0.0-9.0-0.7-1.38","<div style=""font-size:46px;"">8 + 4 = 10<br><br><br><br></div>"
"4676","K,L,R,S,J","K,L,R,S,P,J","4","6","operation-span-recall","202","320126","0.0-9.0-1.7",""
"800","","","1","","html-button-operationspan","205","326265","0.0-9.0-0.8-1.39","<div style=""font-size:46px;"">4 - 1 = 2<br><br><br><br></div>"
"778","","","1","","html-button-operationspan","208","328047","0.0-9.0-0.8-1.40","<div style=""font-size:46px;"">1 + 3 = 3<br><br><br><br></div>"
"851","","","1","","html-button-operationspan","211","329901","0.0-9.0-0.8-1.41","<div style=""font-size:46px;"">10 + 6 = 16<br><br><br><br></div>"
"685","","","1","","html-button-operationspan","214","331590","0.0-9.0-0.8-1.42","<div style=""font-size:46px;"">2 + 7 = 9<br><br><br><br></div>"
"853","","","1","","html-button-operationspan","217","333447","0.0-9.0-0.8-1.43","<div style=""font-size:46px;"">4 - 1 = 3<br><br><br><br></div>"
"828","","","1","","html-button-operationspan","220","335277","0.0-9.0-0.8-1.44","<div style=""font-size:46px;"">7 - 1 = 6<br><br><br><br></div>"
"4304","N,H,Q,P,V,K","N,H,Q,P,V,K","6","6","operation-span-recall","222","339584","0.0-9.0-1.8",""
"734","","","1","","html-button-operationspan","225","346324","0.0-9.0-0.9-1.45","<div style=""font-size:46px;"">8 - 4 = 4<br><br><br><br></div>"
"839","","","1","","html-button-operationspan","228","348165","0.0-9.0-0.9-1.46","<div style=""font-size:46px;"">8 - 5 = 3<br><br><br><br></div>"
"839","","","1","","html-button-operationspan","231","350007","0.0-9.0-0.9-1.47","<div style=""font-size:46px;"">10 - 1 = 9<br><br><br><br></div>"
"706","","","1","","html-button-operationspan","234","351717","0.0-9.0-0.9-1.48","<div style=""font-size:46px;"">8 - 7 = 1<br><br><br><br></div>"
"965","","","1","","html-button-operationspan","237","353688","0.0-9.0-0.9-1.49","<div style=""font-size:46px;"">7 + 7 = 13<br><br><br><br></div>"
"802","","","1","","html-button-operationspan","240","355493","0.0-9.0-0.9-1.50","<div style=""font-size:46px;"">6 + 1 = 7<br><br><br><br></div>"
"861","","","1","","html-button-operationspan","243","357358","0.0-9.0-0.9-1.51","<div style=""font-size:46px;"">3 - 2 = 1<br><br><br><br></div>"
"14465","K,J,V,T,N,R,Q","K,J,V,N,R,T,Q","4","7","operation-span-recall","245","371826","0.0-9.0-1.9",""
"660","","","1","","html-button-operationspan","248","379516","0.0-9.0-0.10-1.52","<div style=""font-size:46px;"">4 + 4 = 8<br><br><br><br></div>"
"884","","","1","","html-button-operationspan","251","381402","0.0-9.0-0.10-1.53","<div style=""font-size:46px;"">10 - 8 = 2<br><br><br><br></div>"
"659","","","1","","html-button-operationspan","254","383064","0.0-9.0-0.10-1.54","<div style=""font-size:46px;"">10 - 5 = 5<br><br><br><br></div>"
"1163","","","1","","html-button-operationspan","257","385230","0.0-9.0-0.10-1.55","<div style=""font-size:46px;"">6 - 4 = 2<br><br><br><br></div>"
"1023","","","1","","html-button-operationspan","260","387255","0.0-9.0-0.10-1.56","<div style=""font-size:46px;"">7 - 4 = 1<br><br><br><br></div>"
"1430","","","1","","html-button-operationspan","263","389689","0.0-9.0-0.10-1.57","<div style=""font-size:46px;"">7 - 2 = 5<br><br><br><br></div>"
"1627","","","1","","html-button-operationspan","266","392319","0.0-9.0-0.10-1.58","<div style=""font-size:46px;"">9 + 9 = 18<br><br><br><br></div>"
"5693","K,Q,T,S,F,H,R","K,Q,T,S,F,H,R","7","7","operation-span-recall","268","398015","0.0-9.0-1.10",""
"642","","","1","","html-button-operationspan","271","402760","0.0-9.0-0.11-1.59","<div style=""font-size:46px;"">2 - 1 = 1<br><br><br><br></div>"
"785","","","1","","html-button-operationspan","274","404547","0.0-9.0-0.11-1.60","<div style=""font-size:46px;"">9 - 5 = 4<br><br><br><br></div>"
"920","","","1","","html-button-operationspan","277","406471","0.0-9.0-0.11-1.61","<div style=""font-size:46px;"">6 - 4 = 4<br><br><br><br></div>"
"745","","","1","","html-button-operationspan","280","408219","0.0-9.0-0.11-1.62","<div style=""font-size:46px;"">7 - 2 = 5<br><br><br><br></div>"
"1991","","","0","","html-button-operationspan","283","411214","0.0-9.0-0.11-1.63","<div style=""font-size:46px;"">8 + 7 = 15<br><br><br><br></div>"
"818","","","1","","html-button-operationspan","286","413034","0.0-9.0-0.11-1.64","<div style=""font-size:46px;"">3 + 1 = 4<br><br><br><br></div>"
"844","","","1","","html-button-operationspan","289","414881","0.0-9.0-0.11-1.65","<div style=""font-size:46px;"">10 - 3 = 7<br><br><br><br></div>"
"7571","L,P,F,N,T,S","L,P,F,N,Q,T,S","4","7","operation-span-recall","291","422456","0.0-9.0-1.11",""
