"rt","recall","stimuli","accuracy","set_size","trial_type","trial_index","time_elapsed","internal_node_id","stimulus"
"6010","J,Q,R","J,Q,R","3","3","operation-span-recall","9","77137","0.0-3.0-1.0",""
"3885","Q,P,V,K","Q,P,V,K","4","4","operation-span-recall","19","86684","0.0-3.0-1.1",""
"5375","P,S,H,V,J","P,S,H,V,J","5","5","operation-span-recall","31","98189","0.0-3.0-1.2",""
"1880","","","1","","html-button-operationspan","34","109763","0.0-5.0-0.0","<div style=""font-size:46px;"">2 - 1 = 1<br><br><br><br></div>"
"1313","","","1","","html-button-operationspan","36","112087","0.0-5.0-0.1","<div style=""font-size:46px;"">9 - 2 = 5<br><br><br><br></div>"
"2822","","","1","","html-button-operationspan","38","115927","0.0-5.0-0.2","<div style=""font-size:46px;"">4 + 9 = 15<br><br><br><br></div>"
"1159","","","1","","html-button-operationspan","40","118095","0.0-5.0-0.3","<div style=""font-size:46px;"">8 + 4 = 12<br><br><br><br></div>"
"2262","","","1","","html-button-operationspan","42","121366","0.0-5.0-0.4","<div style=""font-size:46px;"">2 - 1 = 2<br><br><br><br></div>"
"1397","","","1","","html-button-operationspan","46","145043","0.0-7.0-0.0-1.0","<div style=""font-size:46px;"">6 - 2 = 4<br><br><br><br></div>"
"1369","","","1","","html-button-operationspan","49","147436","0.0-7.0-0.0-1.1","<div style=""font-size:46px;"">2 - 1 = 0<br><br><br><br></div>"
"1164","","","1","","html-button-operationspan","52","149611","0.0-7.0-0.0-1.2","<div style=""font-size:46px;"">5 - 4 = 2<br><br><br><br></div>"
"4013","S,J,R","S,J,R","3","3","operation-span-recall","54","153630","0.0-7.0-1.0",""
"1171","","","1","","html-button-operationspan","57","157367","0.0-7.0-0.1-1.3","<div style=""font-size:46px;"">1 - 1 = 1<br><br><br><br></div>"
"1584","","","1","","html-button-operationspan","60","159961","0.0-7.0-0.1-1.4","<div style=""font-size:46px;"">10 - 6 = 5<br><br><br><br></div>"
"1520","","","1","","html-button-operationspan","63","162497","0.0-7.0-0.1-1.5","<div style=""font-size:46px;"">5 - 3 = 1<br><br><br><br></div>"
"1187","","","1","","html-button-operationspan","66","164693","0.0-7.0-0.1-1.6","<div style=""font-size:46px;"">2 - 1 = 1<br><br><br><br></div>"
"6661","V,J,R,H","V,H,K,F","1","4","operation-span-recall","68","171360","0.0-7.0-1.1",""
"2981","","","1","","html-button-operationspan","72","182940","0.0-9.0-0.0-1.0","<div style=""font-size:46px;"">4 - 3 = 3<br><br><br><br></div>"
"1174","","","1","","html-button-operationspan","75","185130","0.0-9.0-0.0-1.1","<div style=""font-size:46px;"">10 - 1 = 9<br><br><br><br></div>"
"1062","","","1","","html-button-operationspan","78","187208","0.0-9.0-0.0-1.2","<div style=""font-size:46px;"">7 - 2 = 3<br><br><br><br></div>"
"1123","","","1","","html-button-operationspan","81","189337","0.0-9.0-0.0-1.3","<div style=""font-size:46px;"">5 + 10 = 15<br><br><br><br></div>"
"9399","F,V,R,H","F,T,R,Q","2","4","operation-span-recall","83","198742","0.0-9.0-1.0",""
"1196","","","1","","html-button-operationspan","86","202770","0.0-9.0-0.1-1.4","<div style=""font-size:46px;"">10 - 1 = 9<br><br><br><br></div>"
"1033","","","1","","html-button-operationspan","89","204818","0.0-9.0-0.1-1.5","<div style=""font-size:46px;"">4 + 10 = 14<br><br><br><br></div>"
"1355","","","1","","html-button-operationspan","92","207180","0.0-9.0-0.1-1.6","<div style=""font-size:46px;"">4 - 3 = 3<br><br><br><br></div>"
"1737","","","1","","html-button-operationspan","95","209933","0.0-9.0-0.1-1.7","<div style=""font-size:46px;"">10 - 7 = 1<br><br><br><br></div>"
"9346","V,R,N,L","V,R,N,L","4","4","operation-span-recall","97","219285","0.0-9.0-1.1",""
"1488","","","1","","html-button-operationspan","100","223042","0.0-9.0-0.2-1.8","<div style=""font-size:46px;"">2 - 1 = 3<br><br><br><br></div>"
"1022","","","1","","html-button-operationspan","103","225075","0.0-9.0-0.2-1.9","<div style=""font-size:46px;"">5 + 2 = 6<br><br><br><br></div>"
"1623","","","1","","html-button-operationspan","106","227708","0.0-9.0-0.2-1.10","<div style=""font-size:46px;"">10 - 4 = 7<br><br><br><br></div>"
"1257","","","1","","html-button-operationspan","109","229973","0.0-9.0-0.2-1.11","<div style=""font-size:46px;"">6 - 3 = 2<br><br><br><br></div>"
"4500","V,Q,F,P","V,Q,F,P","4","4","operation-span-recall","111","234480","0.0-9.0-1.2",""
"1242","","","1","","html-button-operationspan","114","238155","0.0-9.0-0.3-1.12","<div style=""font-size:46px;"">9 + 9 = 18<br><br><br><br></div>"
"1071","","","1","","html-button-operationspan","117","240233","0.0-9.0-0.3-1.13","<div style=""font-size:46px;"">3 + 5 = 8<br><br><br><br></div>"
"997","","","1","","html-button-operationspan","120","242243","0.0-9.0-0.3-1.14","<div style=""font-size:46px;"">8 + 8 = 16<br><br><br><br></div>"
"1178","","","1","","html-button-operationspan","123","244433","0.0-9.0-0.3-1.15","<div style=""font-size:46px;"">10 + 7 = 16<br><br><br><br></div>"
"1501","","","1","","html-button-operationspan","126","246946","0.0-9.0-0.3-1.16","<div style=""font-size:46px;"">2 + 9 = 11<br><br><br><br></div>"
"5078","S,F,J,P,H","S,F,J,P,H","5","5","operation-span-recall","128","252031","0.0-9.0-1.3",""
"976","","","1","","html-button-operationspan","131","254911","0.0-9.0-0.4-1.17","<div style=""font-size:46px;"">8 + 4 = 12<br><br><br><br></div>"
"2368","","","1","","html-button-operationspan","134","258294","0.0-9.0-0.4-1.18","<div style=""font-size:46px;"">1 - 1 = 0<br><br><br><br></div>"
"1780","","","0","","html-button-operationspan","137","261083","0.0-9.0-0.4-1.19","<div style=""font-size:46px;"">1 - 1 = 0<br><br><br><br></div>"
"1298","","","1","","html-button-operationspan","140","263394","0.0-9.0-0.4-1.20","<div style=""font-size:46px;"">2 + 2 = 4<br><br><br><br></div>"
"1868","","","1","","html-button-operationspan","143","266274","0.0-9.0-0.4-1.21","<div style=""font-size:46px;"">1 + 10 = 9<br><br><br><br></div>"
"6436","S,R,K,P,V","R,K,P,T,N","0","5","operation-span-recall","145","272715","0.0-9.0-1.4",""
"1241","","","1","","html-button-operationspan","148","280156","0.0-9.0-0.5-1.22","<div style=""font-size:46px;"">6 + 2 = 8<br><br><br><br></div>"
"1165","","","1","","html-button-operationspan","151","282331","0.0-9.0-0.5-1.23","<div style=""font-size:46px;"">1 + 8 = 9<br><br><br><br></div>"
"1325","","","1","","html-button-operationspan","154","284671","0.0-9.0-0.5-1.24","<div style=""font-size:46px;"">2 + 6 = 8<br><br><br><br></div>"
"1628","","","1","","html-button-operationspan","157","287311","0.0-9.0-0.5-1.25","<div style=""font-size:46px;"">4 + 2 = 7<br><br><br><br></div>"
"1235","","","1","","html-button-operationspan","160","289561","0.0-9.0-0.5-1.26","<div style=""font-size:46px;"">4 + 1 = 4<br><br><br><br></div>"
"4531","L,F,S,P,N","L,F,S,P,N","5","5","operation-span-recall","162","294099","0.0-9.0-1.5",""
"1682","","","1","","html-button-operationspan","165","297759","0.0-9.0-0.6-1.27","<div style=""font-size:46px;"">8 + 4 = 12<br><br><br><br></div>"
"1783","","","1","","html-button-operationspan","168","300548","0.0-9.0-0.6-1.28","<div style=""font-size:46px;"">10 - 7 = 3<br><br><br><br></div>"
"1175","","","1","","html-button-operationspan","171","302731","0.0-9.0-0.6-1.29","<div style=""font-size:46px;"">1 + 1 = 4<br><br><br><br></div>"
"1334","","","1","","html-button-operationspan","174","305071","0.0-9.0-0.6-1.30","<div style=""font-size:46px;"">10 + 10 = 18<br><br><br><br></div>"
"1875","","","1","","html-button-operationspan","177","307951","0.0-9.0-0.6-1.31","<div style=""font-size:46px;"">9 + 1 = 10<br><br><br><br></div>"
"1206","","","1","","html-button-operationspan","180","310171","0.0-9.0-0.6-1.32","<div style=""font-size:46px;"">2 + 3 = 7<br><br><br><br></div>"
"5265","S,V,H,P,Q,R","S,V,H,P,Q,R","6","6","operation-span-recall","182","315443","0.0-9.0-1.6",""
"1182","","","1","","html-button-operationspan","185","318706","0.0-9.0-0.7-1.33","<div style=""font-size:46px;"">4 + 3 = 6<br><br><br><br></div>"
"1091","","","1","","html-button-operationspan","188","320806","0.0-9.0-0.7-1.34","<div style=""font-size:46px;"">1 + 5 = 6<br><br><br><br></div>"
"1607","","","1","","html-button-operationspan","191","323424","0.0-9.0-0.7-1.35","<div style=""font-size:46px;"">2 + 6 = 8<br><br><br><br></div>"
"1029","","","1","","html-button-operationspan","194","325464","0.0-9.0-0.7-1.36","<div style=""font-size:46px;"">7 + 3 = 12<br><br><br><br></div>"
"2258","","","1","","html-button-operationspan","197","328734","0.0-9.0-0.7-1.37","<div style=""font-size:46px;"">4 - 2 = 1<br><br><br><br></div>"
"2566","","","1","","html-button-operationspan","200","332311","0.0-9.0-0.7-1.38","<div style=""font-size:46px;"">5 - 3 = 2<br><br><br><br></div>"
"7569","F,V,R,N,H,Q","R,V,F,N,K,Q","3","6","operation-span-recall","202","339886","0.0-9.0-1.7",""
"1651","","","1","","html-button-operationspan","205","344026","0.0-9.0-0.8-1.39","<div style=""font-size:46px;"">4 + 7 = 11<br><br><br><br></div>"
"1472","","","1","","html-button-operationspan","208","346517","0.0-9.0-0.8-1.40","<div style=""font-size:46px;"">9 - 3 = 6<br><br><br><br></div>"
"1496","","","1","","html-button-operationspan","211","349021","0.0-9.0-0.8-1.41","<div style=""font-size:46px;"">3 - 2 = 1<br><br><br><br></div>"
"1633","","","1","","html-button-operationspan","214","351662","0.0-9.0-0.8-1.42","<div style=""font-size:46px;"">6 - 5 = 1<br><br><br><br></div>"
"4371","","","1","","html-button-operationspan","217","357047","0.0-9.0-0.8-1.43","<div style=""font-size:46px;"">8 - 5 = 5<br><br><br><br></div>"
"3468","","","1","","html-button-operationspan","220","361524","0.0-9.0-0.8-1.44","<div style=""font-size:46px;"">10 - 2 = 8<br><br><br><br></div>"
"7186","H,V,T,P,Q,F","H,V,T,P,Q,F","6","6","operation-span-recall","222","368716","0.0-9.0-1.8",""
"1231","","","1","","html-button-operationspan","225","372797","0.0-9.0-0.9-1.45","<div style=""font-size:46px;"">4 - 1 = 1<br><br><br><br></div>"
"1185","","","1","","html-button-operationspan","228","375002","0.0-9.0-0.9-1.46","<div style=""font-size:46px;"">4 + 8 = 14<br><br><br><br></div>"
"1386","","","1","","html-button-operationspan","231","377401","0.0-9.0-0.9-1.47","<div style=""font-size:46px;"">7 + 9 = 16<br><br><br><br></div>"
"1927","","","1","","html-button-operationspan","234","380343","0.0-9.0-0.9-1.48","<div style=""font-size:46px;"">7 - 2 = 5<br><br><br><br></div>"
"2384","","","1","","html-button-operationspan","237","383739","0.0-9.0-0.9-1.49","<div style=""font-size:46px;"">8 - 7 = 1<br><br><br><br></div>"
"1776","","","1","","html-button-operationspan","240","386522","0.0-9.0-0.9-1.50","<div style=""font-size:46px;"">2 + 3 = 4<br><br><br><br></div>"
"3095","","","1","","html-button-operationspan","243","390632","0.0-9.0-0.9-1.51","<div style=""font-size:46px;"">3 - 2 = 3<br><br><br><br></div>"
"7343","R,J,V,Q,S,K,H","R,J,V,Q,S,K,H","7","7","operation-span-recall","245","397981","0.0-9.0-1.9",""
"2085","","","1","","html-button-operationspan","248","404042","0.0-9.0-0.10-1.52","<div style=""font-size:46px;"">10 - 2 = 6<br><br><br><br></div>"
"1239","","","1","","html-button-operationspan","251","406299","0.0-9.0-0.10-1.53","<div style=""font-size:46px;"">10 - 3 = 8<br><br><br><br></div>"
"1339","","","1","","html-button-operationspan","254","408654","0.0-9.0-0.10-1.54","<div style=""font-size:46px;"">5 - 4 = 1<br><br><br><br></div>"
"1142","","","1","","html-button-operationspan","257","410807","0.0-9.0-0.10-1.55","<div style=""font-size:46px;"">3 + 8 = 11<br><br><br><br></div>"
"1369","","","1","","html-button-operationspan","260","413184","0.0-9.0-0.10-1.56","<div style=""font-size:46px;"">10 - 2 = 6<br><br><br><br></div>"
"1621","","","1","","html-button-operationspan","263","415817","0.0-9.0-0.10-1.57","<div style=""font-size:46px;"">9 + 2 = 11<br><br><br><br></div>"
"2043","","","1","","html-button-operationspan","266","418869","0.0-9.0-0.10-1.58","<div style=""font-size:46px;"">8 - 5 = 3<br><br><br><br></div>"
"5887","K,L,V,Q,P,R","K,L,F,V,Q,P,R","2","7","operation-span-recall","268","424764","0.0-9.0-1.10",""
"3014","","","1","","html-button-operationspan","271","432152","0.0-9.0-0.11-1.59","<div style=""font-size:46px;"">9 - 6 = 4<br><br><br><br></div>"
"1821","","","1","","html-button-operationspan","274","434987","0.0-9.0-0.11-1.60","<div style=""font-size:46px;"">4 + 7 = 9<br><br><br><br></div>"
"1279","","","1","","html-button-operationspan","277","437274","0.0-9.0-0.11-1.61","<div style=""font-size:46px;"">8 + 5 = 13<br><br><br><br></div>"
"2223","","","1","","html-button-operationspan","280","440507","0.0-9.0-0.11-1.62","<div style=""font-size:46px;"">10 - 1 = 9<br><br><br><br></div>"
"2231","","","1","","html-button-operationspan","283","443746","0.0-9.0-0.11-1.63","<div style=""font-size:46px;"">4 + 10 = 14<br><br><br><br></div>"
"2033","","","1","","html-button-operationspan","286","446784","0.0-9.0-0.11-1.64","<div style=""font-size:46px;"">4 + 10 = 14<br><br><br><br></div>"
"2588","","","1","","html-button-operationspan","289","450384","0.0-9.0-0.11-1.65","<div style=""font-size:46px;"">9 + 8 = 17<br><br><br><br></div>"
"8156","H,P,F,J,Q,V,T","H,P,F,J,Q,V,T","7","7","operation-span-recall","291","458546","0.0-9.0-1.11",""
